Folder: hermes/hermes/XRF_wafer_example

Note: README.md
# hermes



## goals

- Consistent active learning and modeling interface aimed at enabling nonstandard analysis and acquisition policy? But with batteries included for standard BayesOpt or whatever
- data acquisition and wrangling with no-work FAIR backend integration
- Possibly actual ML models and bag of materials/physics tricks lives in separate module?

File: CoCrAl_Wafer_XRF_Summary_for_SLAC.csv
Spot x,Spot y,Spot #,Lyr #1(um),Si-At.%,Al-At.%,Cr-At.%,Co-At.%,Al-Int(c/s),Err(c/s),Err(c/s),Si-Int(c/s),Err(c/s),Err(c/s),Cr-Int(c/s),Err(c/s),Err(c/s),Co-Int(c/s),Err(c/s),Err(c/s),LT(secs)
-9.04,-31.64,1,0.089,100,22.357,38.642,39.001,50.07,3.298,1.473,3272.563,25.449,0,1121.635,13.194,0.455,1332.952,14.433,0.422,60.028
4.52,-31.64,4,0.094,100,17.528,37.847,44.625,41.793,3.03,1.271,3098.83,24.764,0,1203.193,13.664,0.43,1660.246,16.085,0.432,60.031
-13.56,-27.12,7,0.094,100,24.852,36.606,38.542,58.657,3.542,1.501,3212.728,25.218,0,1124.524,13.214,0.43,1392.944,14.756,0.408,60.02
0,-27.12,10,0.104,100,20.067,36.043,43.89,51.671,3.32,1.289,2981.256,24.281,0,1248.937,13.917,0.402,1778.066,16.64,0.411,60.054
13.56,-27.12,13,0.104,100,15.797,33.949,50.254,40.943,2.981,1.15,2873.902,23.841,0,1212.388,13.711,0.384,2081.927,17.993,0.434,60.053
-18.08,-22.6,16,0.099,100,28.818,33.854,37.328,70.365,3.847,1.576,3206.617,25.186,0,1073.591,12.906,0.407,1392.277,14.739,0.395,60.043
-4.52,-22.6,19,0.107,100,22.26,34.169,43.571,58.445,3.52,1.341,2920.328,24.036,0,1208.364,13.691,0.387,1799.893,16.74,0.405,60.043
9.04,-22.6,22,0.109,100,16.94,32.799,50.26,45.601,3.136,1.165,2723.683,23.217,0,1225.659,13.792,0.369,2176.008,18.388,0.425,60.03
22.6,-22.6,25,0.104,100,13.073,30.123,56.804,33.952,2.744,1.056,2761.128,23.376,0,1102.641,13.081,0.357,2388.159,19.259,0.458,60.03
-18.08,-18.08,28,0.103,100,29.803,31.712,38.485,75.374,3.971,1.57,3080.388,24.687,0,1049.735,12.764,0.386,1494.579,15.265,0.393,60.038
-4.52,-18.08,31,0.113,100,22.589,32.306,45.106,61.158,3.601,1.33,2851.554,23.749,0,1193.572,13.605,0.368,1940.424,17.377,0.404,60.053
9.04,-18.08,34,0.116,100,17.127,30.678,52.195,48.45,3.232,1.142,2705.704,23.137,0,1224.886,13.785,0.345,2404.192,19.322,0.419,60.045
22.6,-18.08,37,0.115,100,13.319,27.896,58.786,37.372,2.855,1.017,2628.614,22.803,0,1131.124,13.252,0.327,2723.083,20.557,0.444,60.044
-22.6,-13.56,40,0.106,100,33.784,29.15,37.066,86.987,4.253,1.652,3160.292,25.031,0,976.912,12.31,0.367,1457.295,15.074,0.383,60.071
-9.04,-13.56,43,0.115,100,25.933,29.958,44.109,72.108,3.886,1.397,2855.214,23.773,0,1132.115,13.255,0.351,1939.814,17.376,0.395,60.025
4.52,-13.56,46,0.119,100,19.098,29.304,51.598,54.496,3.418,1.198,2634.266,22.832,0,1180.149,13.532,0.336,2395.737,19.293,0.416,60.042
18.08,-13.56,49,0.12,100,14.298,26.931,58.772,41.431,2.994,1.033,2497.336,22.227,0,1137.627,13.287,0.315,2827.538,20.943,0.435,60.047
-31.64,-9.04,52,0.093,100,38.804,26.952,34.244,88.74,4.312,1.885,3364.132,25.795,0,777.954,10.992,0.381,1162.716,13.49,0.397,60.056
-18.08,-9.04,55,0.114,100,31.876,27.675,40.449,87.228,4.256,1.555,2991.394,24.328,0,1008.201,12.509,0.343,1719.626,16.368,0.385,60.039
-4.52,-9.04,58,0.121,100,24.157,27.784,48.059,69.917,3.833,1.324,2743.618,23.294,0,1118.45,13.174,0.327,2236.555,18.64,0.401,60.058
9.04,-9.04,61,0.124,100,18.022,26.411,55.567,53.625,3.376,1.135,2530.01,22.373,0,1137.55,13.291,0.309,2732.626,20.593,0.419,60.043
22.6,-9.04,64,0.126,100,13.886,23.257,62.857,41.792,3.002,0.997,2428.433,21.924,0,1063.067,12.853,0.281,3192.989,22.252,0.438,60.028
-31.64,-4.52,67,0.102,100,41.558,24.461,33.981,102.518,4.608,1.868,3283.872,25.488,0,766.282,10.913,0.348,1249.94,13.975,0.38,60.043
-18.08,-4.52,70,0.117,100,33.284,25.503,41.213,93.082,4.394,1.571,2924.272,24.055,0,954.211,12.175,0.325,1794.625,16.717,0.384,60.037
-4.52,-4.52,73,0.125,100,25.206,25.584,49.21,74.83,3.951,1.331,2689.181,23.069,0,1067.749,12.877,0.309,2361.158,19.156,0.399,60.031
9.04,-4.52,76,0.129,100,18.688,23.99,57.322,57.134,3.479,1.138,2487.396,22.185,0,1086.987,12.991,0.287,2922.824,21.291,0.418,60.042
22.6,-4.52,79,0.129,100,13.42,21.627,64.952,41.112,2.986,0.975,2350.112,21.563,0,1027.906,12.636,0.266,3390.385,22.921,0.439,60.048
-31.64,0,82,0.106,100,43.43,22.112,34.458,110.977,4.786,1.873,3252.855,25.371,0,724.939,10.619,0.324,1314.456,14.333,0.376,60.033
-18.08,0,85,0.12,100,34.473,23.442,42.085,98.535,4.52,1.581,2883.252,23.89,0,906.995,11.875,0.307,1878.165,17.105,0.383,60.027
-4.52,0,88,0.128,100,26.582,23.21,50.208,80.578,4.094,1.351,2628.974,22.802,0,1004.883,12.489,0.288,2467.998,19.573,0.398,60.061
9.04,0,91,0.131,100,19.205,22.051,58.744,59.457,3.542,1.144,2425.582,21.91,0,1027.409,12.632,0.271,3043.973,21.726,0.419,60.036
22.6,0,94,0.131,100,13.294,19.459,67.247,41.259,2.993,0.964,2269.937,21.201,0,957.728,12.207,0.248,3580.956,23.558,0.442,60.014
-31.64,4.52,97,0.106,100,44.143,20.456,35.4,112.312,4.818,1.894,3202.829,25.181,0,672.842,10.239,0.311,1343.473,14.488,0.382,60.02
-18.08,4.52,100,0.121,100,35.342,21.63,43.027,101.428,4.575,1.594,2824.59,23.635,0,848.867,11.482,0.293,1929.161,17.32,0.386,60.058
-4.52,4.52,103,0.127,100,26.631,21.575,51.793,79.845,4.081,1.361,2556.774,22.492,0,933.329,12.044,0.278,2517.874,19.776,0.407,60.044
9.04,4.52,106,0.132,100,19.438,20.169,60.393,60.19,3.57,1.153,2364.496,21.631,0,954.474,12.182,0.257,3140.16,22.066,0.424,60.045
22.6,4.52,109,0.132,100,13.515,18.011,68.474,42.164,3.016,0.967,2184.01,20.794,0,903.07,11.851,0.236,3679.026,23.877,0.444,60.025
-31.64,9.04,112,0.107,100,45.274,18.97,35.756,116.256,4.894,1.906,3216.128,25.224,0,633.709,9.933,0.297,1368.615,14.623,0.382,60.047
-18.08,9.04,115,0.124,100,36.853,19.482,43.665,107.918,4.718,1.611,2843.003,23.719,0,790.072,11.091,0.273,2000.787,17.643,0.385,60.037
-4.52,9.04,118,0.131,100,27.645,19.421,52.934,84.806,4.196,1.368,2566.026,22.533,0,874.884,11.665,0.259,2645.925,20.267,0.405,60.042
9.04,9.04,121,0.136,100,20.361,18.364,61.275,64.541,3.68,1.161,2326.651,21.457,0,903.908,11.858,0.241,3277.614,22.539,0.421,60.041
22.6,9.04,124,0.134,100,13.257,16.36,70.382,41.756,2.998,0.952,2171.904,20.732,0,843.084,11.456,0.222,3840.115,24.39,0.447,60.038
-27.12,13.56,127,0.115,100,43.774,17.39,38.836,119.4,4.952,1.815,3013.915,24.415,0,635.674,9.948,0.272,1604.685,15.811,0.383,60.054
-13.56,13.56,130,0.127,100,34.281,18.103,47.615,102.123,4.593,1.542,2698.861,23.116,0,768.095,10.931,0.258,2250.385,18.702,0.396,60.018
0,13.56,133,0.133,100,25.637,17.526,56.838,79.507,4.076,1.314,2455.784,22.045,0,821.89,11.308,0.241,2908.228,21.238,0.415,60.046
13.56,13.56,136,0.136,100,18.169,16.123,65.708,57.806,3.489,1.097,2238.784,21.052,0,822.376,11.319,0.222,3571.567,23.526,0.433,60.027
27.12,13.56,139,0.132,100,11.944,14.05,74.006,37.198,2.855,0.917,2155.159,20.654,0,732.922,10.691,0.205,4013.313,24.933,0.46,60.04
-18.08,18.08,142,0.12,100,37.805,16.541,45.654,107.37,4.713,1.66,2746.222,23.315,0,659.211,10.134,0.254,2019.946,17.728,0.401,60.032
-4.52,18.08,145,0.13,100,28.987,16.167,54.846,88.26,4.285,1.407,2507.52,22.274,0,736.354,10.707,0.235,2717.23,20.536,0.415,60.054
9.04,18.08,148,0.135,100,19.897,15.388,64.715,62.519,3.63,1.155,2298.315,21.328,0,771.051,10.959,0.219,3448.481,23.117,0.434,60.036
22.6,18.08,151,0.135,100,13.508,13.528,72.965,42.589,3.024,0.959,2160.282,20.675,0,715.382,10.563,0.2,4005.38,24.905,0.454,60.045
-18.08,22.6,154,0.122,100,39.155,15.037,45.808,112.712,4.819,1.674,2844.24,23.718,0,612.202,9.769,0.24,2054.009,17.87,0.399,60.058
-4.52,22.6,157,0.129,100,28.821,15.017,56.162,87.392,4.269,1.408,2543.402,22.437,0,687.949,10.353,0.226,2774.92,20.754,0.42,60.04
9.04,22.6,160,0.134,100,20.01,14.011,65.979,62.432,3.63,1.163,2315.098,21.406,0,703.725,10.474,0.209,3490.679,23.26,0.44,60.041
22.6,22.6,163,0.129,100,13.287,12.386,74.327,40.697,2.962,0.967,2218.367,20.949,0,637.078,9.97,0.194,3936.659,24.685,0.466,60.052
-9.04,27.12,166,0.124,100,32.931,13.852,53.217,96.381,4.467,1.526,2684.034,23.046,0,600.797,9.678,0.223,2488.894,19.66,0.42,60.038
4.52,27.12,169,0.13,100,23.266,13.292,63.442,70.95,3.856,1.264,2416.882,21.866,0,640.942,9.995,0.207,3225.208,22.355,0.44,60.056
18.08,27.12,172,0.126,100,15.709,11.881,72.41,47.092,3.178,1.06,2300.792,21.34,0,589.425,9.597,0.193,3701.173,23.947,0.469,60.034
0,31.64,175,0.124,100,27.627,12.238,60.135,80.925,4.103,1.401,2586.545,22.622,0,553.844,9.3,0.205,2870.762,21.103,0.442,60.047
9.04,31.64,177,0.123,100,21.071,11.663,67.266,61.187,3.591,1.237,2477.26,22.144,0,543.548,9.217,0.198,3254.52,22.464,0.464,60.026